x> y^ xf yf
Frequency (Hz)	Magnitude (amp)
0	5.81860495
43.0664062	5.82021952
86.1328125	5.85989141
129.199219	5.94869661
172.265625	6.10576916
215.332031	6.26226091
258.398438	6.52519703
301.464844	6.89412546
344.53125	7.28193903
387.597656	8.00738049
430.664062	8.95905685
473.730469	10.699564
516.796875	13.962883
559.863281	21.0424023
602.929688	71.144783
645.996094	39.0729065
689.0625	14.51651
732.128906	8.42623711
775.195312	6.71873713
818.261719	5.92265368
861.328125	5.63206005
904.394531	5.81766701
947.460938	6.1126771
990.527344	6.95324945
1033.59375	8.20527363
1076.66016	9.9055481
1119.72656	12.9983482
1162.79297	16.0209541
1205.85938	38.7888985
1248.92578	114.862404
1291.99219	22.7453976
1335.05859	9.15790844
1378.125	7.22521734
1421.19141	4.78809738
1464.25781	3.63045502
1507.32422	2.96456409
1550.39062	3.03040981
1593.45703	2.71065092
1636.52344	3.40915036
1679.58984	3.92028975
1722.65625	4.73373461
1765.72266	8.80404472
1808.78906	9.79096031
1851.85547	103.200623
1894.92188	12.1614971
1937.98828	8.22263145
1981.05469	4.01116228
2024.12109	2.97008944
2067.1875	3.20974517
2110.25391	3.1117816
2153.32031	4.17022848
2196.38672	4.81624222
2239.45312	5.58818483
2282.51953	7.33295012
2325.58594	9.16580963
2368.65234	13.91957
2411.71875	18.9807091
2454.78516	61.6970444
2497.85156	59.4847565
2540.91797	22.3713493
2583.98438	9.57089233
2627.05078	7.52178955
2670.11719	6.13578796
2713.18359	4.5935545
2756.25	3.80112696
2799.31641	2.65340209
2842.38281	2.64115524
2885.44922	2.69441462
2928.51562	2.73498511
2971.58203	2.88494587
3014.64844	5.79793644
3057.71484	12.5582399
3100.78125	73.4996109
3143.84766	11.1711149
3186.91406	5.17267036
3229.98047	4.07507801
3273.04688	3.64442825
3316.11328	2.4020617
3359.17969	2.28676319
3402.24609	1.89258564
3445.3125	2.10408044
3488.37891	2.32582736
3531.44531	2.46200418
3574.51172	2.79844022
3617.57812	7.06444025
3660.64453	5.84950256
3703.71094	38.3341484
3746.77734	11.5348549
3789.84375	7.01776743
3832.91016	3.58533311
3875.97656	2.85489869
3919.04297	2.147156
3962.10938	1.96010828
4005.17578	1.75141287
4048.24219	1.60332787
4091.30859	1.75589859
4134.375	1.99734282
4177.44141	2.69430089
4220.50781	3.56358624
4263.57422	4.99741411
4306.64062	14.9150991
4349.70703	25.164217
4392.77344	8.59526157
4435.83984	3.82022619
4478.90625	3.53629994
4521.97266	2.94212747
4565.03906	2.39073801
4608.10547	1.8009491
4651.17188	1.94960546
4694.23828	1.62468946
4737.30469	1.30981588
4780.37109	1.33777678
4823.4375	0.620777071
4866.50391	3.36823726
4909.57031	0.750484645
4952.63672	23.1072178
4995.70312	1.2147398
5038.76953	2.58599234
5081.83594	0.283776104
5124.90234	0.892024994
5167.96875	0.674173176
5211.03516	0.606542349
5254.10156	0.0679457933
5297.16797	0.41378358
5340.23438	0.457857072
5383.30078	0.468825638
5426.36719	0.823892713
5469.43359	2.61363459
5512.5	2.05252528
5555.56641	12.0712395
5598.63281	7.28730106
5641.69922	4.42224026
5684.76562	2.31112528
5727.83203	1.74051011
5770.89844	1.6642288
5813.96484	1.56966925
5857.03125	1.34226191
5900.09766	0.95875895
5943.16406	1.15832841
5986.23047	0.987775087
6029.29688	1.13080966
6072.36328	0.822486639
6115.42969	1.93279421
6158.49609	2.84776878
6201.5625	7.45848846
6244.62891	2.12287474
6287.69531	1.54334378
6330.76172	1.10529125
6373.82812	1.04350603
6416.89453	0.802920818
6459.96094	0.815647125
6503.02734	0.749497712
6546.09375	0.718155622
6589.16016	0.842710197
6632.22656	0.646592021
6675.29297	0.311385393
6718.35938	1.36936772
6761.42578	0.279806942
6804.49219	5.33315086
6847.55859	0.900713921
6890.625	1.35605443
6933.69141	0.740442872
6976.75781	0.673140109
7019.82422	0.674609005
7062.89062	0.643442273
7105.95703	0.576063395
7149.02344	0.55598861
7192.08984	0.371919721
7235.15625	0.454926461
7278.22266	0.432627946
7321.28906	0.380012006
7364.35547	0.639174879
7407.42188	2.18380928
7450.48828	2.58100867
7493.55469	1.36825955
7536.62109	0.965480566
7579.6875	0.785778642
7622.75391	0.807277381
7665.82031	0.69906491
7708.88672	0.665051699
7751.95312	0.594710529
7795.01953	0.682953238
7838.08594	0.64625448
7881.15234	0.606829405
7924.21875	0.565746427
7967.28516	0.784330428
8010.35156	0.662858963
8053.41797	1.60212302
8096.48438	0.423740774
8139.55078	0.624990821
8182.61719	0.467986077
8225.68359	0.472512424
8268.75	0.477714062
8311.81641	0.460056275
8354.88281	0.433127165
8397.94922	0.409947366
8441.01562	0.385219544
8484.08203	0.428175777
8527.14844	0.433666348
8570.21484	0.125991687
8613.28125	0.511770129
8656.34766	1.28305602
8699.41406	0.68036902
8742.48047	0.516113162
8785.54688	0.521519661
8828.61328	0.454925865
8871.67969	0.495446742
8914.74609	0.493385732
8957.8125	0.461461157
9000.87891	0.455134392
9043.94531	0.473059773
9087.01172	0.398905456
9130.07812	0.500831842
9173.14453	0.486941189
9216.21094	0.607999146
9259.27734	0.892807961
9302.34375	0.86431706
9345.41016	0.339129061
9388.47656	0.466158628
9431.54297	0.345493495
9474.60938	0.318977296
9517.67578	0.35441035
9560.74219	0.393373072
9603.80859	0.310865819
9646.875	0.355045706
9689.94141	0.368191123
9733.00781	0.343726516
9776.07422	0.412947655
9819.14062	0.127719983
9862.20703	0.388162762
9905.27344	0.717277825
9948.33984	0.251411557
9991.40625	0.304922283
10034.4727	0.33528778
10077.5391	0.282312691
10120.6055	0.298411041
10163.6719	0.302396774
10206.7383	0.314917326
10249.8047	0.298086703
10292.8711	0.27274245
10335.9375	0.29180631
10379.0039	0.315347254
10422.0703	0.320739746
10465.1367	0.378284216
10508.2031	0.778514028
10551.2695	0.297813505
10594.3359	0.248626202
10637.4023	0.30300346
10680.4688	0.287768841
10723.5352	0.252256244
10766.6016	0.293672085
10809.668	0.309671223
10852.7344	0.260309011
10895.8008	0.298052818
10938.8672	0.303823858
10981.9336	0.266362488
11025	0.285021156
11068.0664	0.342439651
11111.1328	0.345054686
11154.1992	0.233459175
11197.2656	0.0939176753
11240.332	0.302240908
11283.3984	0.245996803
11326.4648	0.240454152
11369.5312	0.209260687
11412.5977	0.234627545
11455.6641	0.25516662
11498.7305	0.260522813
11541.7969	0.223739147
11584.8633	0.213905931
11627.9297	0.252475232
11670.9961	0.0656441152
11714.0625	0.26141122
11757.1289	0.323037654
11800.1953	0.172664598
11843.2617	0.186126128
11886.3281	0.240728721
11929.3945	0.255165488
11972.4609	0.217773646
12015.5273	0.246646613
12058.5938	0.199184015
12101.6602	0.205306575
12144.7266	0.250779748
12187.793	0.203969568
12230.8594	0.290619463
12273.9258	0.314040095
12316.9922	0.257279217
12360.0586	0.420133591
12403.125	0.187110633
12446.1914	0.126698047
12489.2578	0.198331386
12532.3242	0.196234658
12575.3906	0.202989593
12618.457	0.208510488
12661.5234	0.236987561
12704.5898	0.189731494
12747.6562	0.201480389
12790.7227	0.209601432
12833.7891	0.185676128
12876.8555	0.239100471
12919.9219	0.141605526
12962.9883	0.226907551
13006.0547	0.0672869161
13049.1211	0.169204608
13092.1875	0.157094896
13135.2539	0.186596453
13178.3203	0.169869229
13221.3867	0.17723009
13264.4531	0.165197492
13307.5195	0.206731766
13350.5859	0.188364297
13393.6523	0.182387576
13436.7188	0.195432052
13479.7852	0.184543625
13522.8516	0.169732302
13565.918	0.177419677
13608.9844	0.344922632
13652.0508	0.235383496
13695.1172	0.171784177
13738.1836	0.163855404
13781.25	0.164872453
13824.3164	0.172881961
13867.3828	0.155433491
13910.4492	0.190428987
13953.5156	0.18018423
13996.582	0.173890337
14039.6484	0.181998074
14082.7148	0.203472063
14125.7812	0.181393623
14168.8477	0.193850636
14211.9141	0.253161311
14254.9805	0.0639238879
14298.0469	0.126650885
14341.1133	0.140326396
14384.1797	0.172771543
14427.2461	0.144296452
14470.3125	0.162817672
14513.3789	0.186156273
14556.4453	0.160306245
14599.5117	0.219183922
14642.5781	0.175496131
14685.6445	0.1445335
14728.7109	0.16803582
14771.7773	0.173460901
14814.8438	0.163453281
14857.9102	0.136728927
14900.9766	0.15002203
14944.043	0.17374973
14987.1094	0.143443137
15030.1758	0.169993386
15073.2422	0.161658287
15116.3086	0.150399253
15159.375	0.148060501
15202.4414	0.150482863
15245.5078	0.164051354
15288.5742	0.123798043
15331.6406	0.167465463
15374.707	0.143712848
15417.7734	0.163042635
15460.8398	0.172773704
15503.9062	0.15022853
15546.9727	0.139738023
15590.0391	0.151341081
15633.1055	0.169165969
15676.1719	0.143095404
15719.2383	0.158190712
15762.3047	0.15010044
15805.3711	0.144972995
15848.4375	0.154273957
15891.5039	0.145318478
15934.5703	0.171783388
15977.6367	0.157664105
16020.7031	0.143617824
16063.7695	0.164696649
16106.8359	0.131250665
16149.9023	0.142350063
16192.9688	0.14453885
16236.0352	0.150227144
16279.1016	0.132170603
16322.168	0.149600521
16365.2344	0.140027851
16408.3008	0.143287063
16451.3672	0.152579218
16494.4336	0.142870456
16537.5	0.135312632
16580.5664	0.140905559
16623.6328	0.133817777
16666.6992	0.148088902
16709.7656	0.140912056
16752.832	0.139815673
16795.8984	0.130180731
16838.9648	0.141043514
16882.0312	0.146714061
16925.0977	0.147353142
16968.1641	0.127563491
17011.2305	0.132383987
17054.2969	0.140675664
17097.3633	0.136057734
17140.4297	0.136190057
17183.4961	0.144767836
17226.5625	0.146669686
17269.6289	0.14319779
17312.6953	0.145310119
17355.7617	0.153003573
17398.8281	0.15785858
17441.8945	0.132184014
17484.9609	0.136171773
17528.0273	0.142526165
17571.0938	0.138408899
17614.1602	0.149043754
17657.2266	0.126187444
17700.293	0.134359166
17743.3594	0.15596889
17786.4258	0.150798008
17829.4922	0.151200444
17872.5586	0.147835672
17915.625	0.134400159
17958.6914	0.152421057
18001.7578	0.138322294
18044.8242	0.125594527
18087.8906	0.120912053
18130.957	0.117158964
18174.0234	0.157128662
18217.0898	0.125896454
18260.1562	0.120364435
18303.2227	0.136868
18346.2891	0.144146308
18389.3555	0.134947225
18432.4219	0.134974971
18475.4883	0.131628528
18518.5547	0.143806919
18561.6211	0.139495403
18604.6875	0.143783376
18647.7539	0.128190964
18690.8203	0.137003258
18733.8867	0.141586915
18776.9531	0.143387854
18820.0195	0.129829079
18863.0859	0.134093255
18906.1523	0.132412672
18949.2188	0.139456034
18992.2852	0.128060177
19035.3516	0.120564967
19078.418	0.139531106
19121.4844	0.138311744
19164.5508	0.137569502
19207.6172	0.123751298
19250.6836	0.142603651
19293.75	0.138277411
19336.8164	0.11519327
19379.8828	0.127476931
19422.9492	0.151374668
19466.0156	0.146364659
19509.082	0.127532065
19552.1484	0.127737477
19595.2148	0.135942414
19638.2812	0.137831017
19681.3477	0.150892451
19724.4141	0.131944075
19767.4805	0.134989396
19810.5469	0.128269166
19853.6133	0.121911414
19896.6797	0.118312426
19939.7461	0.128591672
19982.8125	0.139008015
20025.8789	0.121088207
20068.9453	0.136510849
20112.0117	0.143168122
20155.0781	0.127379045
20198.1445	0.126357704
20241.2109	0.12874791
20284.2773	0.127214164
20327.3438	0.143248618
20370.4102	0.132941827
20413.4766	0.121042542
20456.543	0.152062148
20499.6094	0.121468082
20542.6758	0.12995097
20585.7422	0.116342828
20628.8086	0.130617648
20671.875	0.13092114
20714.9414	0.114354976
20758.0078	0.14854522
20801.0742	0.131517589
20844.1406	0.14252241
20887.207	0.142661989
20930.2734	0.133423552
20973.3398	0.130849034
21016.4062	0.137645766
21059.4727	0.125513509
21102.5391	0.127604827
21145.6055	0.117153697
21188.6719	0.11363551
21231.7383	0.134024486
21274.8047	0.108799398
21317.8711	0.136932254
21360.9375	0.120503306
21404.0039	0.124530442
21447.0703	0.12360771
21490.1367	0.131015778
21533.2031	0.116326787
21576.2695	0.128628612
21619.3359	0.127791375
21662.4023	0.109725244
21705.4688	0.107685201
21748.5352	0.124559596
21791.6016	0.114596128
21834.668	0.135153875
21877.7344	0.126396209
21920.8008	0.136092111
21963.8672	0.121843435
22006.9336	0.143913403
22050	0.130329609
